# E (eV)  dos(E)    pdos(E)
   0.000  0.820E+02  0.819E+02
   0.010  0.809E+02  0.807E+02
   0.020  0.907E+02  0.906E+02
   0.030  0.251E+03  0.251E+03
   0.040  0.243E+03  0.242E+03
   0.050  0.212E+03  0.212E+03
   0.060  0.111E+03  0.110E+03
   0.070  0.574E+02  0.573E+02
   0.080  0.474E+02  0.473E+02
   0.090  0.923E+02  0.922E+02
   0.100  0.110E+03  0.110E+03
   0.110  0.205E+03  0.205E+03
   0.120  0.164E+03  0.164E+03
   0.130  0.107E+03  0.107E+03
   0.140  0.704E+02  0.703E+02
   0.150  0.458E+02  0.457E+02
   0.160  0.312E+02  0.312E+02
   0.170  0.199E+02  0.199E+02
   0.180  0.679E+01  0.679E+01
   0.190  0.681E+00  0.680E+00
   0.200  0.123E-02  0.123E-02
   0.210  0.000E+00  0.000E+00
   0.220  0.000E+00  0.000E+00
   0.230  0.000E+00  0.000E+00
   0.240  0.000E+00  0.000E+00
   0.250  0.000E+00  0.000E+00
   0.260  0.000E+00  0.000E+00
   0.270  0.000E+00  0.000E+00
   0.280  0.000E+00  0.000E+00
   0.290  0.000E+00  0.000E+00
   0.300  0.000E+00  0.000E+00
   0.310  0.000E+00  0.000E+00
   0.320  0.286E-05  0.283E-05
   0.330  0.117E-02  0.116E-02
   0.340  0.112E-01  0.111E-01
   0.350  0.409E-01  0.406E-01
   0.360  0.934E-01  0.927E-01
   0.370  0.169E+00  0.167E+00
   0.380  0.267E+00  0.265E+00
   0.390  0.387E+00  0.384E+00
   0.400  0.531E+00  0.527E+00
   0.410  0.697E+00  0.692E+00
   0.420  0.886E+00  0.880E+00
   0.430  0.110E+01  0.109E+01
   0.440  0.133E+01  0.132E+01
   0.450  0.159E+01  0.158E+01
   0.460  0.192E+01  0.190E+01
   0.470  0.279E+01  0.277E+01
   0.480  0.430E+01  0.427E+01
   0.490  0.558E+01  0.554E+01
   0.500  0.660E+01  0.656E+01
   0.510  0.737E+01  0.732E+01
   0.520  0.788E+01  0.783E+01
   0.530  0.815E+01  0.810E+01
   0.540  0.817E+01  0.812E+01
   0.550  0.790E+01  0.785E+01
   0.560  0.748E+01  0.743E+01
   0.570  0.750E+01  0.745E+01
   0.580  0.794E+01  0.789E+01
   0.590  0.843E+01  0.838E+01
   0.600  0.894E+01  0.888E+01
   0.610  0.946E+01  0.940E+01
   0.620  0.100E+02  0.994E+01
   0.630  0.106E+02  0.105E+02
   0.640  0.111E+02  0.111E+02
   0.650  0.118E+02  0.117E+02
   0.660  0.124E+02  0.123E+02
   0.670  0.130E+02  0.129E+02
   0.680  0.137E+02  0.137E+02
   0.690  0.162E+02  0.161E+02
   0.700  0.203E+02  0.202E+02
   0.710  0.229E+02  0.228E+02
   0.720  0.230E+02  0.229E+02
   0.730  0.231E+02  0.229E+02
   0.740  0.231E+02  0.230E+02
   0.750  0.235E+02  0.234E+02
   0.760  0.251E+02  0.250E+02
   0.770  0.257E+02  0.256E+02
   0.780  0.235E+02  0.234E+02
   0.790  0.238E+02  0.237E+02
   0.800  0.242E+02  0.241E+02
   0.810  0.247E+02  0.245E+02
   0.820  0.250E+02  0.249E+02
   0.830  0.254E+02  0.253E+02
   0.840  0.258E+02  0.256E+02
   0.850  0.261E+02  0.260E+02
   0.860  0.264E+02  0.263E+02
   0.870  0.267E+02  0.265E+02
   0.880  0.277E+02  0.276E+02
   0.890  0.299E+02  0.297E+02
   0.900  0.320E+02  0.318E+02
   0.910  0.346E+02  0.345E+02
   0.920  0.383E+02  0.381E+02
   0.930  0.405E+02  0.403E+02
   0.940  0.417E+02  0.415E+02
   0.950  0.423E+02  0.420E+02
   0.960  0.416E+02  0.414E+02
   0.970  0.401E+02  0.399E+02
   0.980  0.437E+02  0.435E+02
   0.990  0.508E+02  0.506E+02
   1.000  0.602E+02  0.599E+02
   1.010  0.729E+02  0.725E+02
   1.020  0.742E+02  0.739E+02
   1.030  0.124E+03  0.123E+03
   1.040  0.148E+03  0.147E+03
   1.050  0.139E+03  0.139E+03
   1.060  0.153E+03  0.152E+03
   1.070  0.119E+03  0.118E+03
   1.080  0.791E+02  0.787E+02
   1.090  0.721E+02  0.717E+02
   1.100  0.637E+02  0.634E+02
   1.110  0.539E+02  0.537E+02
   1.120  0.426E+02  0.424E+02
   1.130  0.303E+02  0.302E+02
   1.140  0.228E+02  0.227E+02
   1.150  0.299E+02  0.298E+02
   1.160  0.436E+02  0.435E+02
   1.170  0.527E+02  0.525E+02
   1.180  0.546E+02  0.544E+02
   1.190  0.530E+02  0.528E+02
   1.200  0.536E+02  0.534E+02
   1.210  0.527E+02  0.524E+02
   1.220  0.521E+02  0.519E+02
   1.230  0.522E+02  0.520E+02
   1.240  0.529E+02  0.527E+02
   1.250  0.537E+02  0.534E+02
   1.260  0.554E+02  0.551E+02
   1.270  0.564E+02  0.561E+02
   1.280  0.562E+02  0.560E+02
   1.290  0.552E+02  0.550E+02
   1.300  0.533E+02  0.531E+02
   1.310  0.504E+02  0.502E+02
   1.320  0.466E+02  0.464E+02
   1.330  0.423E+02  0.421E+02
   1.340  0.392E+02  0.390E+02
   1.350  0.365E+02  0.363E+02
   1.360  0.342E+02  0.341E+02
   1.370  0.327E+02  0.326E+02
   1.380  0.313E+02  0.312E+02
   1.390  0.300E+02  0.299E+02
   1.400  0.288E+02  0.287E+02
   1.410  0.276E+02  0.275E+02
   1.420  0.267E+02  0.267E+02
   1.430  0.263E+02  0.262E+02
   1.440  0.269E+02  0.268E+02
   1.450  0.277E+02  0.276E+02
   1.460  0.284E+02  0.283E+02
   1.470  0.289E+02  0.288E+02
   1.480  0.292E+02  0.292E+02
   1.490  0.294E+02  0.293E+02
   1.500  0.293E+02  0.292E+02
   1.510  0.290E+02  0.290E+02
   1.520  0.286E+02  0.285E+02
   1.530  0.280E+02  0.279E+02
   1.540  0.271E+02  0.271E+02
   1.550  0.261E+02  0.260E+02
   1.560  0.249E+02  0.249E+02
   1.570  0.237E+02  0.236E+02
   1.580  0.224E+02  0.223E+02
   1.590  0.211E+02  0.211E+02
   1.600  0.198E+02  0.198E+02
   1.610  0.185E+02  0.184E+02
   1.620  0.175E+02  0.174E+02
   1.630  0.169E+02  0.169E+02
   1.640  0.166E+02  0.165E+02
   1.650  0.165E+02  0.165E+02
   1.660  0.168E+02  0.168E+02
   1.670  0.173E+02  0.172E+02
   1.680  0.180E+02  0.180E+02
   1.690  0.189E+02  0.188E+02
   1.700  0.201E+02  0.200E+02
   1.710  0.232E+02  0.231E+02
   1.720  0.249E+02  0.248E+02
   1.730  0.244E+02  0.243E+02
   1.740  0.223E+02  0.222E+02
   1.750  0.192E+02  0.192E+02
   1.760  0.160E+02  0.159E+02
   1.770  0.132E+02  0.131E+02
   1.780  0.116E+02  0.116E+02
   1.790  0.116E+02  0.116E+02
   1.800  0.122E+02  0.122E+02
   1.810  0.132E+02  0.132E+02
   1.820  0.144E+02  0.143E+02
   1.830  0.155E+02  0.154E+02
   1.840  0.164E+02  0.164E+02
   1.850  0.172E+02  0.172E+02
   1.860  0.179E+02  0.178E+02
   1.870  0.184E+02  0.184E+02
   1.880  0.188E+02  0.187E+02
   1.890  0.190E+02  0.190E+02
   1.900  0.191E+02  0.191E+02
   1.910  0.191E+02  0.190E+02
   1.920  0.189E+02  0.188E+02
   1.930  0.186E+02  0.185E+02
   1.940  0.181E+02  0.180E+02
   1.950  0.175E+02  0.174E+02
   1.960  0.168E+02  0.168E+02
   1.970  0.162E+02  0.161E+02
   1.980  0.157E+02  0.156E+02
   1.990  0.152E+02  0.152E+02
   2.000  0.148E+02  0.148E+02
   2.010  0.144E+02  0.143E+02
   2.020  0.140E+02  0.140E+02
   2.030  0.137E+02  0.137E+02
   2.040  0.134E+02  0.134E+02
   2.050  0.131E+02  0.131E+02
   2.060  0.129E+02  0.129E+02
   2.070  0.127E+02  0.127E+02
   2.080  0.126E+02  0.126E+02
   2.090  0.126E+02  0.126E+02
   2.100  0.126E+02  0.125E+02
   2.110  0.126E+02  0.126E+02
   2.120  0.127E+02  0.127E+02
   2.130  0.128E+02  0.128E+02
   2.140  0.129E+02  0.128E+02
   2.150  0.129E+02  0.129E+02
   2.160  0.130E+02  0.130E+02
   2.170  0.131E+02  0.130E+02
   2.180  0.131E+02  0.131E+02
   2.190  0.132E+02  0.132E+02
   2.200  0.133E+02  0.132E+02
   2.210  0.133E+02  0.133E+02
   2.220  0.134E+02  0.133E+02
   2.230  0.132E+02  0.132E+02
   2.240  0.140E+02  0.139E+02
   2.250  0.155E+02  0.154E+02
   2.260  0.181E+02  0.180E+02
   2.270  0.158E+02  0.158E+02
   2.280  0.148E+02  0.147E+02
   2.290  0.145E+02  0.145E+02
   2.300  0.140E+02  0.140E+02
   2.310  0.134E+02  0.134E+02
   2.320  0.127E+02  0.126E+02
   2.330  0.120E+02  0.119E+02
   2.340  0.116E+02  0.116E+02
   2.350  0.115E+02  0.114E+02
   2.360  0.113E+02  0.113E+02
   2.370  0.112E+02  0.112E+02
   2.380  0.111E+02  0.110E+02
   2.390  0.109E+02  0.109E+02
   2.400  0.108E+02  0.108E+02
   2.410  0.107E+02  0.106E+02
   2.420  0.105E+02  0.105E+02
   2.430  0.104E+02  0.104E+02
   2.440  0.103E+02  0.103E+02
   2.450  0.104E+02  0.103E+02
   2.460  0.112E+02  0.111E+02
   2.470  0.126E+02  0.126E+02
   2.480  0.131E+02  0.130E+02
   2.490  0.138E+02  0.137E+02
   2.500  0.146E+02  0.145E+02
   2.510  0.156E+02  0.155E+02
   2.520  0.167E+02  0.167E+02
   2.530  0.178E+02  0.178E+02
   2.540  0.188E+02  0.187E+02
   2.550  0.197E+02  0.196E+02
   2.560  0.206E+02  0.205E+02
   2.570  0.214E+02  0.213E+02
   2.580  0.221E+02  0.220E+02
   2.590  0.228E+02  0.227E+02
   2.600  0.235E+02  0.234E+02
   2.610  0.241E+02  0.240E+02
   2.620  0.253E+02  0.252E+02
   2.630  0.282E+02  0.281E+02
   2.640  0.315E+02  0.314E+02
   2.650  0.349E+02  0.347E+02
   2.660  0.379E+02  0.378E+02
   2.670  0.405E+02  0.404E+02
   2.680  0.425E+02  0.424E+02
   2.690  0.458E+02  0.456E+02
   2.700  0.494E+02  0.492E+02
   2.710  0.558E+02  0.556E+02
   2.720  0.668E+02  0.665E+02
   2.730  0.865E+02  0.862E+02
   2.740  0.101E+03  0.100E+03
   2.750  0.136E+03  0.135E+03
   2.760  0.751E+02  0.748E+02
   2.770  0.433E+02  0.431E+02
   2.780  0.359E+02  0.358E+02
   2.790  0.329E+02  0.328E+02
   2.800  0.301E+02  0.300E+02
   2.810  0.278E+02  0.277E+02
   2.820  0.273E+02  0.273E+02
   2.830  0.404E+02  0.402E+02
   2.840  0.502E+02  0.500E+02
   2.850  0.729E+02  0.726E+02
   2.860  0.484E+02  0.483E+02
   2.870  0.401E+02  0.400E+02
   2.880  0.299E+02  0.298E+02
   2.890  0.251E+02  0.251E+02
   2.900  0.253E+02  0.252E+02
   2.910  0.253E+02  0.253E+02
   2.920  0.256E+02  0.255E+02
   2.930  0.256E+02  0.255E+02
   2.940  0.249E+02  0.249E+02
   2.950  0.246E+02  0.245E+02
   2.960  0.258E+02  0.257E+02
   2.970  0.282E+02  0.281E+02
   2.980  0.311E+02  0.310E+02
   2.990  0.343E+02  0.342E+02
   3.000  0.382E+02  0.381E+02
   3.010  0.436E+02  0.435E+02
   3.020  0.479E+02  0.477E+02
   3.030  0.507E+02  0.505E+02
   3.040  0.525E+02  0.523E+02
   3.050  0.541E+02  0.540E+02
   3.060  0.559E+02  0.557E+02
   3.070  0.576E+02  0.574E+02
   3.080  0.591E+02  0.589E+02
   3.090  0.604E+02  0.602E+02
   3.100  0.615E+02  0.613E+02
   3.110  0.648E+02  0.646E+02
   3.120  0.573E+02  0.571E+02
   3.130  0.504E+02  0.502E+02
   3.140  0.460E+02  0.458E+02
   3.150  0.445E+02  0.444E+02
   3.160  0.434E+02  0.432E+02
   3.170  0.426E+02  0.424E+02
   3.180  0.413E+02  0.411E+02
   3.190  0.398E+02  0.396E+02
   3.200  0.384E+02  0.383E+02
   3.210  0.379E+02  0.378E+02
   3.220  0.389E+02  0.388E+02
   3.230  0.395E+02  0.393E+02
   3.240  0.396E+02  0.395E+02
   3.250  0.382E+02  0.381E+02
   3.260  0.372E+02  0.371E+02
   3.270  0.382E+02  0.381E+02
   3.280  0.450E+02  0.449E+02
   3.290  0.521E+02  0.519E+02
   3.300  0.544E+02  0.542E+02
   3.310  0.559E+02  0.557E+02
   3.320  0.594E+02  0.593E+02
   3.330  0.636E+02  0.634E+02
   3.340  0.643E+02  0.642E+02
   3.350  0.638E+02  0.636E+02
   3.360  0.623E+02  0.622E+02
   3.370  0.613E+02  0.611E+02
   3.380  0.604E+02  0.602E+02
   3.390  0.590E+02  0.588E+02
   3.400  0.622E+02  0.620E+02
   3.410  0.581E+02  0.580E+02
   3.420  0.579E+02  0.577E+02
   3.430  0.578E+02  0.576E+02
   3.440  0.588E+02  0.587E+02
   3.450  0.617E+02  0.615E+02
   3.460  0.646E+02  0.645E+02
   3.470  0.649E+02  0.647E+02
   3.480  0.639E+02  0.637E+02
   3.490  0.627E+02  0.625E+02
   3.500  0.618E+02  0.616E+02
   3.510  0.613E+02  0.612E+02
   3.520  0.616E+02  0.614E+02
   3.530  0.627E+02  0.625E+02
   3.540  0.641E+02  0.639E+02
   3.550  0.652E+02  0.650E+02
   3.560  0.670E+02  0.668E+02
   3.570  0.697E+02  0.695E+02
   3.580  0.693E+02  0.691E+02
   3.590  0.622E+02  0.621E+02
   3.600  0.576E+02  0.574E+02
   3.610  0.558E+02  0.556E+02
   3.620  0.554E+02  0.552E+02
   3.630  0.558E+02  0.557E+02
   3.640  0.568E+02  0.566E+02
   3.650  0.564E+02  0.562E+02
   3.660  0.570E+02  0.568E+02
   3.670  0.621E+02  0.619E+02
   3.680  0.587E+02  0.585E+02
   3.690  0.505E+02  0.504E+02
   3.700  0.485E+02  0.483E+02
   3.710  0.468E+02  0.466E+02
   3.720  0.459E+02  0.458E+02
   3.730  0.456E+02  0.455E+02
   3.740  0.458E+02  0.456E+02
   3.750  0.466E+02  0.464E+02
   3.760  0.485E+02  0.484E+02
   3.770  0.552E+02  0.550E+02
   3.780  0.555E+02  0.554E+02
   3.790  0.700E+02  0.698E+02
   3.800  0.581E+02  0.579E+02
   3.810  0.750E+02  0.747E+02
   3.820  0.948E+02  0.945E+02
   3.830  0.912E+02  0.909E+02
   3.840  0.104E+03  0.104E+03
   3.850  0.810E+02  0.807E+02
   3.860  0.781E+02  0.778E+02
   3.870  0.754E+02  0.751E+02
   3.880  0.730E+02  0.728E+02
   3.890  0.710E+02  0.708E+02
   3.900  0.699E+02  0.697E+02
   3.910  0.704E+02  0.702E+02
   3.920  0.651E+02  0.649E+02
   3.930  0.558E+02  0.556E+02
   3.940  0.479E+02  0.478E+02
   3.950  0.437E+02  0.436E+02
   3.960  0.411E+02  0.409E+02
   3.970  0.392E+02  0.391E+02
   3.980  0.385E+02  0.384E+02
   3.990  0.382E+02  0.381E+02
   4.000  0.384E+02  0.383E+02
   4.010  0.390E+02  0.389E+02
   4.020  0.402E+02  0.401E+02
   4.030  0.419E+02  0.418E+02
   4.040  0.441E+02  0.440E+02
   4.050  0.471E+02  0.469E+02
   4.060  0.509E+02  0.507E+02
   4.070  0.543E+02  0.541E+02
   4.080  0.570E+02  0.568E+02
   4.090  0.592E+02  0.590E+02
   4.100  0.616E+02  0.614E+02
   4.110  0.640E+02  0.638E+02
   4.120  0.685E+02  0.683E+02
   4.130  0.719E+02  0.717E+02
   4.140  0.737E+02  0.735E+02
   4.150  0.779E+02  0.777E+02
   4.160  0.726E+02  0.724E+02
   4.170  0.663E+02  0.661E+02
   4.180  0.642E+02  0.640E+02
   4.190  0.612E+02  0.610E+02
   4.200  0.585E+02  0.583E+02
   4.210  0.572E+02  0.570E+02
   4.220  0.585E+02  0.584E+02
   4.230  0.571E+02  0.569E+02
   4.240  0.529E+02  0.528E+02
   4.250  0.530E+02  0.529E+02
   4.260  0.537E+02  0.536E+02
   4.270  0.551E+02  0.549E+02
   4.280  0.579E+02  0.578E+02
   4.290  0.610E+02  0.608E+02
   4.300  0.655E+02  0.653E+02
   4.310  0.716E+02  0.714E+02
   4.320  0.822E+02  0.820E+02
   4.330  0.885E+02  0.882E+02
   4.340  0.913E+02  0.910E+02
   4.350  0.915E+02  0.912E+02
   4.360  0.856E+02  0.853E+02
   4.370  0.675E+02  0.673E+02
   4.380  0.555E+02  0.553E+02
   4.390  0.503E+02  0.501E+02
   4.400  0.482E+02  0.481E+02
   4.410  0.487E+02  0.485E+02
   4.420  0.491E+02  0.490E+02
   4.430  0.477E+02  0.475E+02
   4.440  0.417E+02  0.416E+02
   4.450  0.410E+02  0.408E+02
   4.460  0.406E+02  0.405E+02
   4.470  0.405E+02  0.404E+02
   4.480  0.409E+02  0.408E+02
   4.490  0.416E+02  0.414E+02
   4.500  0.420E+02  0.419E+02
   4.510  0.421E+02  0.420E+02
   4.520  0.415E+02  0.413E+02
   4.530  0.422E+02  0.421E+02
   4.540  0.437E+02  0.436E+02
   4.550  0.449E+02  0.447E+02
   4.560  0.460E+02  0.458E+02
   4.570  0.470E+02  0.469E+02
   4.580  0.481E+02  0.480E+02
   4.590  0.509E+02  0.507E+02
   4.600  0.589E+02  0.587E+02
   4.610  0.628E+02  0.626E+02
   4.620  0.679E+02  0.677E+02
   4.630  0.669E+02  0.667E+02
   4.640  0.688E+02  0.686E+02
   4.650  0.745E+02  0.743E+02
   4.660  0.751E+02  0.749E+02
   4.670  0.721E+02  0.719E+02
   4.680  0.641E+02  0.640E+02
   4.690  0.580E+02  0.578E+02
   4.700  0.585E+02  0.584E+02
   4.710  0.564E+02  0.563E+02
   4.720  0.609E+02  0.607E+02
   4.730  0.708E+02  0.706E+02
   4.740  0.781E+02  0.779E+02
   4.750  0.860E+02  0.858E+02
   4.760  0.759E+02  0.757E+02
   4.770  0.599E+02  0.597E+02
   4.780  0.496E+02  0.495E+02
   4.790  0.439E+02  0.438E+02
   4.800  0.404E+02  0.402E+02
   4.810  0.378E+02  0.377E+02
   4.820  0.360E+02  0.359E+02
   4.830  0.347E+02  0.346E+02
   4.840  0.337E+02  0.336E+02
   4.850  0.331E+02  0.330E+02
   4.860  0.325E+02  0.324E+02
   4.870  0.320E+02  0.319E+02
   4.880  0.314E+02  0.313E+02
   4.890  0.308E+02  0.307E+02
   4.900  0.302E+02  0.301E+02
   4.910  0.297E+02  0.296E+02
   4.920  0.294E+02  0.293E+02
   4.930  0.297E+02  0.296E+02
   4.940  0.318E+02  0.317E+02
   4.950  0.354E+02  0.353E+02
   4.960  0.360E+02  0.359E+02
   4.970  0.333E+02  0.332E+02
   4.980  0.300E+02  0.299E+02
   4.990  0.298E+02  0.297E+02
   5.000  0.295E+02  0.294E+02
   5.010  0.291E+02  0.290E+02
   5.020  0.285E+02  0.284E+02
   5.030  0.278E+02  0.277E+02
   5.040  0.277E+02  0.276E+02
   5.050  0.287E+02  0.286E+02
   5.060  0.264E+02  0.263E+02
   5.070  0.208E+02  0.207E+02
   5.080  0.224E+02  0.223E+02
   5.090  0.275E+02  0.274E+02
   5.100  0.268E+02  0.268E+02
   5.110  0.252E+02  0.251E+02
   5.120  0.232E+02  0.232E+02
   5.130  0.213E+02  0.212E+02
   5.140  0.188E+02  0.187E+02
   5.150  0.161E+02  0.160E+02
   5.160  0.137E+02  0.136E+02
   5.170  0.124E+02  0.123E+02
   5.180  0.118E+02  0.118E+02
   5.190  0.117E+02  0.117E+02
   5.200  0.117E+02  0.117E+02
   5.210  0.118E+02  0.118E+02
   5.220  0.119E+02  0.118E+02
   5.230  0.125E+02  0.125E+02
   5.240  0.148E+02  0.147E+02
   5.250  0.188E+02  0.188E+02
   5.260  0.232E+02  0.232E+02
   5.270  0.248E+02  0.247E+02
   5.280  0.250E+02  0.249E+02
   5.290  0.288E+02  0.287E+02
   5.300  0.309E+02  0.308E+02
   5.310  0.297E+02  0.296E+02
   5.320  0.248E+02  0.247E+02
   5.330  0.237E+02  0.237E+02
   5.340  0.210E+02  0.209E+02
   5.350  0.183E+02  0.183E+02
   5.360  0.158E+02  0.157E+02
   5.370  0.135E+02  0.135E+02
   5.380  0.117E+02  0.116E+02
   5.390  0.102E+02  0.101E+02
   5.400  0.898E+01  0.895E+01
   5.410  0.804E+01  0.801E+01
   5.420  0.714E+01  0.712E+01
   5.430  0.636E+01  0.634E+01
   5.440  0.575E+01  0.573E+01
   5.450  0.551E+01  0.549E+01
   5.460  0.597E+01  0.595E+01
   5.470  0.631E+01  0.629E+01
   5.480  0.628E+01  0.626E+01
   5.490  0.591E+01  0.589E+01
   5.500  0.518E+01  0.516E+01
   5.510  0.409E+01  0.408E+01
   5.520  0.264E+01  0.263E+01
   5.530  0.116E+01  0.115E+01
   5.540  0.568E+00  0.566E+00
   5.550  0.274E+00  0.273E+00
   5.560  0.888E-01  0.885E-01
   5.570  0.110E-01  0.110E-01
   5.580  0.899E-03  0.896E-03
   5.590  0.115E-03  0.115E-03
   5.600  0.000E+00  0.000E+00
   5.610  0.000E+00  0.000E+00
   5.620  0.000E+00  0.000E+00
   5.630  0.000E+00  0.000E+00
   5.640  0.000E+00  0.000E+00
   5.650  0.000E+00  0.000E+00
   5.660  0.000E+00  0.000E+00
   5.670  0.000E+00  0.000E+00
   5.680  0.000E+00  0.000E+00
   5.690  0.000E+00  0.000E+00
   5.700  0.000E+00  0.000E+00
   5.710  0.000E+00  0.000E+00
   5.720  0.000E+00  0.000E+00
   5.730  0.000E+00  0.000E+00
   5.740  0.000E+00  0.000E+00
   5.750  0.000E+00  0.000E+00
   5.760  0.000E+00  0.000E+00
   5.770  0.000E+00  0.000E+00
   5.780  0.000E+00  0.000E+00
   5.790  0.000E+00  0.000E+00
   5.800  0.000E+00  0.000E+00
   5.810  0.000E+00  0.000E+00
   5.820  0.000E+00  0.000E+00
   5.830  0.000E+00  0.000E+00
   5.840  0.000E+00  0.000E+00
   5.850  0.000E+00  0.000E+00
   5.860  0.000E+00  0.000E+00
   5.870  0.000E+00  0.000E+00
   5.880  0.000E+00  0.000E+00
   5.890  0.000E+00  0.000E+00
   5.900  0.000E+00  0.000E+00
   5.910  0.000E+00  0.000E+00
   5.920  0.000E+00  0.000E+00
   5.930  0.000E+00  0.000E+00
   5.940  0.000E+00  0.000E+00
   5.950  0.000E+00  0.000E+00
   5.960  0.000E+00  0.000E+00
   5.970  0.000E+00  0.000E+00
   5.980  0.000E+00  0.000E+00
   5.990  0.000E+00  0.000E+00
   6.000  0.000E+00  0.000E+00
   6.010  0.000E+00  0.000E+00
   6.020  0.000E+00  0.000E+00
   6.030  0.000E+00  0.000E+00
   6.040  0.000E+00  0.000E+00
   6.050  0.000E+00  0.000E+00
   6.060  0.000E+00  0.000E+00
   6.070  0.000E+00  0.000E+00
   6.080  0.000E+00  0.000E+00
   6.090  0.000E+00  0.000E+00
   6.100  0.000E+00  0.000E+00
   6.110  0.000E+00  0.000E+00
   6.120  0.000E+00  0.000E+00
   6.130  0.000E+00  0.000E+00
   6.140  0.000E+00  0.000E+00
   6.150  0.000E+00  0.000E+00
   6.160  0.000E+00  0.000E+00
   6.170  0.000E+00  0.000E+00
   6.180  0.000E+00  0.000E+00
   6.190  0.000E+00  0.000E+00
   6.200  0.000E+00  0.000E+00
   6.210  0.000E+00  0.000E+00
   6.220  0.000E+00  0.000E+00
   6.230  0.000E+00  0.000E+00
   6.240  0.000E+00  0.000E+00
   6.250  0.000E+00  0.000E+00
   6.260  0.000E+00  0.000E+00
   6.270  0.000E+00  0.000E+00
   6.280  0.000E+00  0.000E+00
   6.290  0.000E+00  0.000E+00
   6.300  0.000E+00  0.000E+00
   6.310  0.000E+00  0.000E+00
   6.320  0.000E+00  0.000E+00
   6.330  0.000E+00  0.000E+00
   6.340  0.000E+00  0.000E+00
   6.350  0.000E+00  0.000E+00
   6.360  0.000E+00  0.000E+00
   6.370  0.000E+00  0.000E+00
   6.380  0.000E+00  0.000E+00
   6.390  0.000E+00  0.000E+00
   6.400  0.000E+00  0.000E+00
   6.410  0.000E+00  0.000E+00
   6.420  0.000E+00  0.000E+00
   6.430  0.000E+00  0.000E+00
   6.440  0.000E+00  0.000E+00
   6.450  0.000E+00  0.000E+00
   6.460  0.000E+00  0.000E+00
   6.470  0.000E+00  0.000E+00
   6.480  0.000E+00  0.000E+00
   6.490  0.000E+00  0.000E+00
   6.500  0.000E+00  0.000E+00
   6.510  0.000E+00  0.000E+00
   6.520  0.000E+00  0.000E+00
   6.530  0.000E+00  0.000E+00
   6.540  0.000E+00  0.000E+00
   6.550  0.000E+00  0.000E+00
   6.560  0.000E+00  0.000E+00
   6.570  0.000E+00  0.000E+00
   6.580  0.000E+00  0.000E+00
   6.590  0.000E+00  0.000E+00
   6.600  0.000E+00  0.000E+00
   6.610  0.000E+00  0.000E+00
   6.620  0.000E+00  0.000E+00
   6.630  0.000E+00  0.000E+00
   6.640  0.000E+00  0.000E+00
   6.650  0.000E+00  0.000E+00
   6.660  0.000E+00  0.000E+00
   6.670  0.000E+00  0.000E+00
   6.680  0.000E+00  0.000E+00
   6.690  0.000E+00  0.000E+00
   6.700  0.000E+00  0.000E+00
   6.710  0.000E+00  0.000E+00
   6.720  0.000E+00  0.000E+00
   6.730  0.000E+00  0.000E+00
   6.740  0.000E+00  0.000E+00
   6.750  0.000E+00  0.000E+00
   6.760  0.000E+00  0.000E+00
   6.770  0.000E+00  0.000E+00
   6.780  0.000E+00  0.000E+00
   6.790  0.000E+00  0.000E+00
   6.800  0.000E+00  0.000E+00
   6.810  0.000E+00  0.000E+00
   6.820  0.000E+00  0.000E+00
   6.830  0.000E+00  0.000E+00
   6.840  0.000E+00  0.000E+00
   6.850  0.000E+00  0.000E+00
   6.860  0.000E+00  0.000E+00
   6.870  0.000E+00  0.000E+00
   6.880  0.000E+00  0.000E+00
   6.890  0.000E+00  0.000E+00
   6.900  0.000E+00  0.000E+00
   6.910  0.000E+00  0.000E+00
   6.920  0.000E+00  0.000E+00
   6.930  0.000E+00  0.000E+00
   6.940  0.000E+00  0.000E+00
   6.950  0.000E+00  0.000E+00
   6.960  0.000E+00  0.000E+00
   6.970  0.000E+00  0.000E+00
   6.980  0.000E+00  0.000E+00
   6.990  0.000E+00  0.000E+00
   7.000  0.000E+00  0.000E+00
   7.010  0.000E+00  0.000E+00
   7.020  0.000E+00  0.000E+00
   7.030  0.000E+00  0.000E+00
   7.040  0.000E+00  0.000E+00
   7.050  0.000E+00  0.000E+00
   7.060  0.000E+00  0.000E+00
   7.070  0.000E+00  0.000E+00
   7.080  0.000E+00  0.000E+00
   7.090  0.000E+00  0.000E+00
   7.100  0.000E+00  0.000E+00
   7.110  0.000E+00  0.000E+00
   7.120  0.000E+00  0.000E+00
   7.130  0.000E+00  0.000E+00
   7.140  0.000E+00  0.000E+00
   7.150  0.000E+00  0.000E+00
   7.160  0.000E+00  0.000E+00
   7.170  0.000E+00  0.000E+00
   7.180  0.000E+00  0.000E+00
   7.190  0.000E+00  0.000E+00
   7.200  0.000E+00  0.000E+00
   7.210  0.000E+00  0.000E+00
   7.220  0.000E+00  0.000E+00
   7.230  0.000E+00  0.000E+00
   7.240  0.000E+00  0.000E+00
   7.250  0.000E+00  0.000E+00
   7.260  0.000E+00  0.000E+00
   7.270  0.000E+00  0.000E+00
   7.280  0.000E+00  0.000E+00
   7.290  0.000E+00  0.000E+00
   7.300  0.000E+00  0.000E+00
   7.310  0.000E+00  0.000E+00
   7.320  0.000E+00  0.000E+00
   7.330  0.000E+00  0.000E+00
   7.340  0.000E+00  0.000E+00
   7.350  0.000E+00  0.000E+00
   7.360  0.000E+00  0.000E+00
   7.370  0.000E+00  0.000E+00
   7.380  0.000E+00  0.000E+00
   7.390  0.000E+00  0.000E+00
   7.400  0.000E+00  0.000E+00
   7.410  0.000E+00  0.000E+00
   7.420  0.380E-05  0.377E-05
   7.430  0.985E-04  0.977E-04
   7.440  0.320E-03  0.318E-03
   7.450  0.672E-03  0.667E-03
   7.460  0.138E-02  0.137E-02
   7.470  0.258E-02  0.256E-02
   7.480  0.428E-02  0.425E-02
   7.490  0.649E-02  0.643E-02
   7.500  0.919E-02  0.911E-02
   7.510  0.124E-01  0.123E-01
   7.520  0.161E-01  0.160E-01
   7.530  0.203E-01  0.201E-01
   7.540  0.250E-01  0.248E-01
   7.550  0.302E-01  0.299E-01
   7.560  0.359E-01  0.356E-01
   7.570  0.421E-01  0.417E-01
   7.580  0.488E-01  0.484E-01
   7.590  0.560E-01  0.555E-01
   7.600  0.637E-01  0.631E-01
   7.610  0.719E-01  0.712E-01
   7.620  0.805E-01  0.799E-01
   7.630  0.897E-01  0.890E-01
   7.640  0.994E-01  0.986E-01
   7.650  0.110E+00  0.109E+00
   7.660  0.120E+00  0.119E+00
   7.670  0.131E+00  0.130E+00
   7.680  0.143E+00  0.142E+00
   7.690  0.155E+00  0.154E+00
   7.700  0.168E+00  0.167E+00
   7.710  0.181E+00  0.180E+00
   7.720  0.195E+00  0.193E+00
   7.730  0.209E+00  0.207E+00
   7.740  0.224E+00  0.222E+00
   7.750  0.239E+00  0.237E+00
   7.760  0.255E+00  0.252E+00
   7.770  0.271E+00  0.269E+00
   7.780  0.288E+00  0.285E+00
   7.790  0.305E+00  0.302E+00
   7.800  0.322E+00  0.320E+00
   7.810  0.341E+00  0.338E+00
   7.820  0.359E+00  0.356E+00
   7.830  0.376E+00  0.373E+00
   7.840  0.394E+00  0.391E+00
   7.850  0.414E+00  0.411E+00
   7.860  0.437E+00  0.433E+00
   7.870  0.463E+00  0.459E+00
   7.880  0.491E+00  0.487E+00
   7.890  0.518E+00  0.514E+00
   7.900  0.543E+00  0.539E+00
   7.910  0.567E+00  0.562E+00
   7.920  0.590E+00  0.585E+00
   7.930  0.611E+00  0.606E+00
   7.940  0.633E+00  0.627E+00
   7.950  0.653E+00  0.647E+00
   7.960  0.673E+00  0.667E+00
   7.970  0.692E+00  0.686E+00
   7.980  0.711E+00  0.705E+00
   7.990  0.730E+00  0.723E+00
   8.000  0.748E+00  0.741E+00
   8.010  0.765E+00  0.759E+00
   8.020  0.783E+00  0.776E+00
   8.030  0.799E+00  0.793E+00
   8.040  0.816E+00  0.809E+00
   8.050  0.832E+00  0.825E+00
   8.060  0.847E+00  0.840E+00
   8.070  0.863E+00  0.855E+00
   8.080  0.877E+00  0.870E+00
   8.090  0.892E+00  0.884E+00
   8.100  0.905E+00  0.897E+00
   8.110  0.918E+00  0.910E+00
   8.120  0.927E+00  0.919E+00
   8.130  0.931E+00  0.923E+00
   8.140  0.931E+00  0.923E+00
   8.150  0.929E+00  0.921E+00
   8.160  0.931E+00  0.922E+00
   8.170  0.934E+00  0.925E+00
   8.180  0.940E+00  0.931E+00
   8.190  0.946E+00  0.937E+00
   8.200  0.951E+00  0.942E+00
   8.210  0.956E+00  0.947E+00
   8.220  0.962E+00  0.952E+00
   8.230  0.968E+00  0.958E+00
   8.240  0.975E+00  0.965E+00
   8.250  0.983E+00  0.974E+00
   8.260  0.993E+00  0.983E+00
   8.270  0.101E+01  0.995E+00
   8.280  0.102E+01  0.101E+01
   8.290  0.103E+01  0.102E+01
   8.300  0.105E+01  0.104E+01
   8.310  0.107E+01  0.106E+01
   8.320  0.110E+01  0.108E+01
   8.330  0.112E+01  0.111E+01
   8.340  0.115E+01  0.113E+01
   8.350  0.117E+01  0.116E+01
   8.360  0.120E+01  0.119E+01
   8.370  0.122E+01  0.121E+01
   8.380  0.125E+01  0.124E+01
   8.390  0.128E+01  0.126E+01
   8.400  0.130E+01  0.129E+01
   8.410  0.133E+01  0.132E+01
   8.420  0.136E+01  0.134E+01
   8.430  0.139E+01  0.137E+01
   8.440  0.142E+01  0.140E+01
   8.450  0.144E+01  0.143E+01
   8.460  0.147E+01  0.146E+01
   8.470  0.151E+01  0.149E+01
   8.480  0.154E+01  0.152E+01
   8.490  0.157E+01  0.155E+01
   8.500  0.160E+01  0.158E+01
   8.510  0.164E+01  0.162E+01
   8.520  0.167E+01  0.165E+01
   8.530  0.171E+01  0.169E+01
   8.540  0.175E+01  0.173E+01
   8.550  0.179E+01  0.176E+01
   8.560  0.183E+01  0.180E+01
   8.570  0.187E+01  0.184E+01
   8.580  0.191E+01  0.188E+01
   8.590  0.195E+01  0.192E+01
   8.600  0.199E+01  0.197E+01
   8.610  0.204E+01  0.201E+01
   8.620  0.208E+01  0.205E+01
   8.630  0.213E+01  0.210E+01
   8.640  0.217E+01  0.214E+01
   8.650  0.222E+01  0.219E+01
   8.660  0.227E+01  0.224E+01
   8.670  0.232E+01  0.229E+01
   8.680  0.237E+01  0.234E+01
   8.690  0.242E+01  0.239E+01
   8.700  0.247E+01  0.244E+01
   8.710  0.254E+01  0.250E+01
   8.720  0.263E+01  0.260E+01
   8.730  0.277E+01  0.273E+01
   8.740  0.294E+01  0.290E+01
   8.750  0.315E+01  0.311E+01
   8.760  0.340E+01  0.335E+01
   8.770  0.369E+01  0.363E+01
   8.780  0.401E+01  0.395E+01
   8.790  0.437E+01  0.430E+01
   8.800  0.475E+01  0.466E+01
   8.810  0.540E+01  0.529E+01
   8.820  0.655E+01  0.642E+01
   8.830  0.113E+02  0.110E+02
   8.840  0.108E+02  0.106E+02
   8.850  0.105E+02  0.102E+02
   8.860  0.104E+02  0.101E+02
   8.870  0.108E+02  0.105E+02
   8.880  0.114E+02  0.110E+02
   8.890  0.119E+02  0.115E+02
   8.900  0.124E+02  0.120E+02
   8.910  0.127E+02  0.123E+02
   8.920  0.129E+02  0.124E+02
   8.930  0.132E+02  0.127E+02
   8.940  0.135E+02  0.130E+02
   8.950  0.137E+02  0.131E+02
   8.960  0.139E+02  0.134E+02
   8.970  0.142E+02  0.136E+02
   8.980  0.151E+02  0.145E+02
   8.990  0.161E+02  0.154E+02
   9.000  0.166E+02  0.158E+02
   9.010  0.159E+02  0.152E+02
   9.020  0.148E+02  0.141E+02
   9.030  0.145E+02  0.137E+02
   9.040  0.145E+02  0.137E+02
   9.050  0.164E+02  0.155E+02
   9.060  0.143E+02  0.135E+02
   9.070  0.123E+02  0.116E+02
   9.080  0.127E+02  0.120E+02
   9.090  0.132E+02  0.124E+02
   9.100  0.138E+02  0.129E+02
   9.110  0.143E+02  0.134E+02
   9.120  0.148E+02  0.139E+02
   9.130  0.153E+02  0.143E+02
   9.140  0.158E+02  0.147E+02
   9.150  0.163E+02  0.151E+02
   9.160  0.167E+02  0.155E+02
   9.170  0.172E+02  0.159E+02
   9.180  0.177E+02  0.164E+02
   9.190  0.182E+02  0.169E+02
   9.200  0.189E+02  0.174E+02
   9.210  0.195E+02  0.180E+02
   9.220  0.201E+02  0.186E+02
   9.230  0.208E+02  0.191E+02
   9.240  0.215E+02  0.198E+02
   9.250  0.222E+02  0.204E+02
   9.260  0.229E+02  0.211E+02
   9.270  0.237E+02  0.218E+02
   9.280  0.245E+02  0.225E+02
   9.290  0.252E+02  0.232E+02
   9.300  0.262E+02  0.240E+02
   9.310  0.272E+02  0.250E+02
   9.320  0.282E+02  0.259E+02
   9.330  0.294E+02  0.269E+02
   9.340  0.303E+02  0.278E+02
   9.350  0.309E+02  0.284E+02
   9.360  0.313E+02  0.288E+02
   9.370  0.315E+02  0.291E+02
   9.380  0.315E+02  0.291E+02
   9.390  0.315E+02  0.293E+02
   9.400  0.318E+02  0.296E+02
   9.410  0.322E+02  0.301E+02
   9.420  0.328E+02  0.307E+02
   9.430  0.335E+02  0.314E+02
   9.440  0.343E+02  0.322E+02
   9.450  0.338E+02  0.318E+02
   9.460  0.326E+02  0.307E+02
   9.470  0.318E+02  0.300E+02
   9.480  0.318E+02  0.300E+02
   9.490  0.329E+02  0.310E+02
   9.500  0.345E+02  0.324E+02
   9.510  0.350E+02  0.328E+02
   9.520  0.348E+02  0.324E+02
   9.530  0.342E+02  0.317E+02
   9.540  0.344E+02  0.317E+02
   9.550  0.336E+02  0.308E+02
   9.560  0.311E+02  0.283E+02
   9.570  0.327E+02  0.295E+02
   9.580  0.339E+02  0.303E+02
   9.590  0.344E+02  0.307E+02
   9.600  0.347E+02  0.307E+02
   9.610  0.347E+02  0.306E+02
   9.620  0.341E+02  0.300E+02
   9.630  0.322E+02  0.283E+02
   9.640  0.312E+02  0.274E+02
   9.650  0.306E+02  0.269E+02
   9.660  0.301E+02  0.264E+02
   9.670  0.305E+02  0.268E+02
   9.680  0.314E+02  0.275E+02
   9.690  0.327E+02  0.285E+02
   9.700  0.341E+02  0.295E+02
   9.710  0.355E+02  0.305E+02
   9.720  0.368E+02  0.314E+02
   9.730  0.428E+02  0.361E+02
   9.740  0.361E+02  0.304E+02
   9.750  0.343E+02  0.290E+02
   9.760  0.342E+02  0.288E+02
   9.770  0.340E+02  0.287E+02
   9.780  0.339E+02  0.287E+02
   9.790  0.340E+02  0.288E+02
   9.800  0.344E+02  0.292E+02
   9.810  0.351E+02  0.299E+02
   9.820  0.359E+02  0.306E+02
   9.830  0.376E+02  0.323E+02
   9.840  0.630E+02  0.554E+02
   9.850  0.113E+03  0.999E+02
   9.860  0.105E+03  0.936E+02
   9.870  0.102E+03  0.913E+02
   9.880  0.910E+02  0.817E+02
   9.890  0.766E+02  0.688E+02
   9.900  0.938E+02  0.843E+02
   9.910  0.726E+02  0.649E+02
   9.920  0.628E+02  0.564E+02
   9.930  0.630E+02  0.565E+02
   9.940  0.634E+02  0.568E+02
   9.950  0.640E+02  0.574E+02
   9.960  0.644E+02  0.577E+02
   9.970  0.643E+02  0.575E+02
   9.980  0.642E+02  0.574E+02
   9.990  0.642E+02  0.572E+02
  10.000  0.648E+02  0.574E+02
  10.010  0.653E+02  0.575E+02
  10.020  0.655E+02  0.574E+02
  10.030  0.662E+02  0.577E+02
  10.040  0.665E+02  0.576E+02
  10.050  0.655E+02  0.566E+02
  10.060  0.650E+02  0.559E+02
  10.070  0.864E+02  0.742E+02
  10.080  0.745E+02  0.634E+02
  10.090  0.845E+02  0.722E+02
  10.100  0.801E+02  0.681E+02
  10.110  0.634E+02  0.533E+02
  10.120  0.576E+02  0.484E+02
  10.130  0.535E+02  0.450E+02
  10.140  0.498E+02  0.419E+02
  10.150  0.464E+02  0.393E+02
  10.160  0.432E+02  0.367E+02
  10.170  0.403E+02  0.345E+02
  10.180  0.389E+02  0.334E+02
  10.190  0.378E+02  0.326E+02
  10.200  0.368E+02  0.319E+02
  10.210  0.363E+02  0.315E+02
  10.220  0.359E+02  0.312E+02
  10.230  0.356E+02  0.310E+02
  10.240  0.354E+02  0.309E+02
  10.250  0.352E+02  0.308E+02
  10.260  0.352E+02  0.308E+02
  10.270  0.353E+02  0.309E+02
  10.280  0.354E+02  0.311E+02
  10.290  0.376E+02  0.330E+02
  10.300  0.626E+02  0.563E+02
  10.310  0.774E+02  0.695E+02
  10.320  0.728E+02  0.645E+02
  10.330  0.736E+02  0.643E+02
  10.340  0.722E+02  0.620E+02
  10.350  0.660E+02  0.556E+02
  10.360  0.570E+02  0.475E+02
  10.370  0.500E+02  0.415E+02
  10.380  0.439E+02  0.366E+02
  10.390  0.389E+02  0.327E+02
  10.400  0.345E+02  0.292E+02
  10.410  0.309E+02  0.264E+02
  10.420  0.281E+02  0.241E+02
  10.430  0.270E+02  0.233E+02
  10.440  0.272E+02  0.235E+02
  10.450  0.277E+02  0.239E+02
  10.460  0.281E+02  0.242E+02
  10.470  0.285E+02  0.245E+02
  10.480  0.289E+02  0.249E+02
  10.490  0.292E+02  0.252E+02
  10.500  0.297E+02  0.256E+02
  10.510  0.302E+02  0.261E+02
  10.520  0.301E+02  0.260E+02
  10.530  0.297E+02  0.257E+02
  10.540  0.302E+02  0.261E+02
  10.550  0.309E+02  0.267E+02
  10.560  0.316E+02  0.274E+02
  10.570  0.321E+02  0.278E+02
  10.580  0.327E+02  0.283E+02
  10.590  0.332E+02  0.288E+02
  10.600  0.338E+02  0.293E+02
  10.610  0.344E+02  0.298E+02
  10.620  0.351E+02  0.304E+02
  10.630  0.361E+02  0.313E+02
  10.640  0.378E+02  0.329E+02
  10.650  0.434E+02  0.379E+02
  10.660  0.482E+02  0.421E+02
  10.670  0.469E+02  0.409E+02
  10.680  0.435E+02  0.376E+02
  10.690  0.409E+02  0.351E+02
  10.700  0.377E+02  0.322E+02
  10.710  0.348E+02  0.294E+02
  10.720  0.329E+02  0.277E+02
  10.730  0.318E+02  0.266E+02
  10.740  0.310E+02  0.259E+02
  10.750  0.303E+02  0.252E+02
  10.760  0.298E+02  0.247E+02
  10.770  0.308E+02  0.253E+02
  10.780  0.263E+02  0.215E+02
  10.790  0.287E+02  0.234E+02
  10.800  0.234E+02  0.192E+02
  10.810  0.204E+02  0.168E+02
  10.820  0.199E+02  0.164E+02
  10.830  0.192E+02  0.159E+02
  10.840  0.181E+02  0.150E+02
  10.850  0.176E+02  0.146E+02
  10.860  0.172E+02  0.144E+02
  10.870  0.170E+02  0.143E+02
  10.880  0.169E+02  0.143E+02
  10.890  0.169E+02  0.144E+02
  10.900  0.170E+02  0.146E+02
  10.910  0.174E+02  0.151E+02
  10.920  0.189E+02  0.165E+02
  10.930  0.208E+02  0.182E+02
  10.940  0.233E+02  0.204E+02
  10.950  0.257E+02  0.226E+02
  10.960  0.280E+02  0.245E+02
  10.970  0.309E+02  0.271E+02
  10.980  0.334E+02  0.293E+02
  10.990  0.356E+02  0.312E+02
  11.000  0.377E+02  0.329E+02
  11.010  0.447E+02  0.385E+02
  11.020  0.424E+02  0.367E+02
  11.030  0.450E+02  0.387E+02
  11.040  0.479E+02  0.407E+02
  11.050  0.500E+02  0.423E+02
  11.060  0.346E+02  0.298E+02
  11.070  0.280E+02  0.241E+02
  11.080  0.236E+02  0.203E+02
  11.090  0.199E+02  0.170E+02
  11.100  0.174E+02  0.149E+02
  11.110  0.164E+02  0.140E+02
  11.120  0.160E+02  0.136E+02
  11.130  0.156E+02  0.133E+02
  11.140  0.153E+02  0.131E+02
  11.150  0.151E+02  0.129E+02
  11.160  0.148E+02  0.127E+02
  11.170  0.146E+02  0.125E+02
  11.180  0.144E+02  0.123E+02
  11.190  0.142E+02  0.122E+02
  11.200  0.141E+02  0.121E+02
  11.210  0.140E+02  0.120E+02
  11.220  0.140E+02  0.120E+02
  11.230  0.140E+02  0.120E+02
  11.240  0.141E+02  0.121E+02
  11.250  0.142E+02  0.122E+02
  11.260  0.144E+02  0.124E+02
  11.270  0.146E+02  0.126E+02
  11.280  0.151E+02  0.130E+02
  11.290  0.159E+02  0.138E+02
  11.300  0.174E+02  0.152E+02
  11.310  0.191E+02  0.166E+02
  11.320  0.208E+02  0.182E+02
  11.330  0.230E+02  0.201E+02
  11.340  0.257E+02  0.224E+02
  11.350  0.290E+02  0.253E+02
  11.360  0.327E+02  0.284E+02
  11.370  0.367E+02  0.319E+02
  11.380  0.412E+02  0.356E+02
  11.390  0.461E+02  0.397E+02
  11.400  0.509E+02  0.436E+02
  11.410  0.558E+02  0.477E+02
  11.420  0.612E+02  0.521E+02
  11.430  0.636E+02  0.541E+02
  11.440  0.682E+02  0.578E+02
  11.450  0.715E+02  0.605E+02
  11.460  0.740E+02  0.625E+02
  11.470  0.668E+02  0.564E+02
  11.480  0.566E+02  0.476E+02
  11.490  0.544E+02  0.457E+02
  11.500  0.526E+02  0.442E+02
  11.510  0.520E+02  0.436E+02
  11.520  0.526E+02  0.440E+02
  11.530  0.542E+02  0.452E+02
  11.540  0.522E+02  0.436E+02
  11.550  0.523E+02  0.438E+02
  11.560  0.505E+02  0.421E+02
  11.570  0.447E+02  0.368E+02
  11.580  0.435E+02  0.356E+02
  11.590  0.456E+02  0.372E+02
  11.600  0.476E+02  0.389E+02
  11.610  0.496E+02  0.405E+02
  11.620  0.517E+02  0.423E+02
  11.630  0.547E+02  0.447E+02
  11.640  0.579E+02  0.474E+02
  11.650  0.609E+02  0.498E+02
  11.660  0.674E+02  0.554E+02
  11.670  0.595E+02  0.483E+02
  11.680  0.557E+02  0.449E+02
  11.690  0.507E+02  0.407E+02
  11.700  0.457E+02  0.364E+02
  11.710  0.417E+02  0.331E+02
  11.720  0.393E+02  0.311E+02
  11.730  0.376E+02  0.298E+02
  11.740  0.388E+02  0.306E+02
  11.750  0.412E+02  0.323E+02
  11.760  0.418E+02  0.327E+02
  11.770  0.428E+02  0.335E+02
  11.780  0.433E+02  0.339E+02
  11.790  0.423E+02  0.332E+02
  11.800  0.394E+02  0.310E+02
  11.810  0.360E+02  0.282E+02
  11.820  0.343E+02  0.268E+02
  11.830  0.360E+02  0.283E+02
  11.840  0.331E+02  0.264E+02
  11.850  0.275E+02  0.217E+02
  11.860  0.260E+02  0.206E+02
  11.870  0.242E+02  0.191E+02
  11.880  0.221E+02  0.174E+02
  11.890  0.199E+02  0.156E+02
  11.900  0.179E+02  0.140E+02
  11.910  0.163E+02  0.127E+02
  11.920  0.155E+02  0.121E+02
  11.930  0.146E+02  0.114E+02
  11.940  0.152E+02  0.119E+02
  11.950  0.149E+02  0.117E+02
  11.960  0.141E+02  0.110E+02
  11.970  0.132E+02  0.102E+02
  11.980  0.123E+02  0.951E+01
  11.990  0.113E+02  0.877E+01
  12.000  0.104E+02  0.802E+01
  12.010  0.942E+01  0.725E+01
